Folder: machine-learning-for-perovskite/3.XGboost

File: data.csv
MA,FA,Cs,Pb,Sn,Other,I,Br,Gap,Po,ETL,HTL,Ne,Add_O,Add_I,Add_H,Step,Solvent,Coated1_v,Coated1_t,Coated2_v,Coated2_t,Antisolvent,Anneal_T,Anneal_t,Jsc,Voc,FF,PCE
1,0,0,1,0,0,1,0,0.61597,1,1,1,0.666667,0,0,0,0.5,0.75,0.5,0.222222,0,0,1,0.285714,0.0222222,21.15,1.028,0.783,12.02
0,0,1,1,0,0,0.666667,0.333333,0.722433,0,0.333333,0.333333,1,0,1,0,0.5,0.75,0.35,0.277778,0,0,0,0.428571,0.0555556,13.49,1.01,0.58,7.9
0,0,1,1,0,0,0,1,0.882129,0,0.333333,0,1,0,0,0,0.5,0.25,0.25,0.111111,0,0,0,0.714286,0.0555556,7.48,1.19,0.688,6.12
0,1,0,0,1,0,1,0,0.555133,1,1,0.666667,1,1,1,1,0.5,0.75,1,0.666667,0,0,1,0.228571,0.111111,20.74,0.84,0.6636,11.56
0,0,1,0,1,0,1,0,0.494297,1,1,0.666667,0.666667,1,1,0,0.5,0.75,0.375,0.333333,0,0,0,0.2,0.0888889,24.94,0.75,0.74,13.68
0,1,0,1,0,0,1,0,0.587452,0,0.666667,0.333333,0.333333,1,1,0,1,1,0.0375,0.111111,0.666667,0.5,1,0.428571,0.111111,23.83,1.05,0.715,17.89
0,1,0,0,1,0,1,0,0.585551,1,1,0.666667,0.666667,0,0,0,1,0.5,0.125,0.133333,0.833333,0.8,1,0.285714,0.133333,22.1,0.53,0.677,7.932
1,0,0,1,0,0,1,0,0.570342,1,0.666667,0.333333,0.666667,0,0,0,0.5,0.75,0.5,0.0666667,0,0,0,0.285714,0.111111,22.47,1.07,0.716,17.21
0,0,1,0,1,0,1,0,0.475285,0,0.333333,1,0.333333,0,1,1,0.5,0.5,0.1875,0.333333,0,0,0,0.285714,0.222222,30.75,0.17,0.3488,1.83
0.25,0.75,0,0,0.9,1,1,0,0.539924,1,1,0.666667,0.333333,0,1,0,0.5,0.25,0.625,0.555556,0,0,1,0.2,0.111111,13.27,0.33,0.49,2.04
0,0,1,0.96,0.04,0,1,0,0.593156,0,0.333333,1,0.333333,0,1,1,1,0.75,0.1,0.111111,0.583333,0.583333,0,0.285714,0.166667,18.76,0.97,0.7259,13.21
0.16,0.79,0.05,0.916,0.16,0,0.826667,0.173333,0.585551,1,1,0.666667,0.666667,0,0,0,0.5,0.75,0.625,0.444444,0,0,0,0.285714,0.333333,21.72,0.66,0.6202,8.87
0,0,1,1,0,0,0,1,0.874525,0,0.333333,0,1,0,0,0,0.5,0.25,0.25,0.333333,0,0,0,0.714286,0.0555556,7.4,1.24,0.73,6.7
0,0,1,0.9,0,0.1,0,1,0.81749,0,0.333333,0,1,0,0,0,1,0.25,0.25,0.333333,0.333333,0.5,0,0.714286,0.0555556,4.84,1.516,0.762,5.59
0,0,1,0.99,0,0.01,0.666667,0.333333,0.722433,0,0.333333,1,0.333333,0,0,0,1,0.75,0.125,0.111111,0.666667,0.5,0,0.285714,0.0555556,14.3,0.938,0.622,8.3
0,0,1,1,0,0,0.666667,0.333333,0.718631,0,0.333333,0.333333,0.333333,0,0,0,1,0.5,0.125,0.111111,0.5,0.5,0,0.8,0.111111,12.57,1.12,0.725,10.21
0,1,0,1,0,0,1,0,0.574144,0,0.333333,0.333333,0.666667,0,0,0,0.5,0.75,0.5,0.333333,0,0,1,0.428571,0.0555556,22.7,1.02,0.69,16
0,1,0,1,0,0,1,0,0.574144,0,0.333333,0.333333,0.666667,0,0,0,0.5,0.75,0.5,0.333333,0,0,1,0.428571,0.0555556,22.8,1.04,0.717,17.1
0,1,0,1,0,0,1,0,0.574144,0,0.333333,0.333333,0.666667,0,0,0,0.5,0.75,0.5,0.333333,0,0,1,0.428571,0.0555556,22.7,1.03,0.723,17
0,0,1,0.9,0,0.1,1,0,0.645627,0,0.333333,0.333333,0.333333,0,0,0,1,0.75,0.1875,0.111111,0.666667,0.5,0,0.514286,0.1,19.74,1.117,0.823,18.14
0.2,0.75,0.05,1,0,0,0.83,0.17,0.619772,0,0.333333,0.333333,0.333333,0,1,1,1,0.75,0.125,0.111111,1,0.333333,1,0.285714,0.666667,17.9,0.913,0.52,8.5
0,0.83,0.17,1,0,0,0.6,0.4,0.661597,0,0.666667,0.333333,0.666667,0,0,0,0.5,0.25,0.25,0.5,0,0,0,0.528571,1,19.4,1.2,0.751,17.1
0,0,1,1,0,0,0.666667,0.333333,0.730038,0,0.333333,0.333333,0.333333,0,0,0,0.5,0.25,0.1875,0.444444,0,0,0,0.8,0.111111,11.03,1.08,0.66,7.8
0,0,1,1,0,0,0.666667,0.333333,0.730038,0,0.333333,0.333333,0.333333,0,0,0,0.5,0.25,0.1875,0.444444,0,0,0,0.8,0.111111,10.81,1.21,0.73,9.5
0,0,1,1,0,0,0.666667,0.333333,0.730038,0,0.333333,0.333333,0.333333,0,0,0,0.5,0.25,0.1875,0.444444,0,0,0,0.8,0.111111,9.23,1.21,0.74,8.3
1,0,0,1,0,0,1,0,0.596958,0,0.333333,0.333333,0.333333,0,0,0,1,1,0.125,0.111111,0.5,0.25,0,0.285714,0.111111,15.61,0.863,0.655,8.82
1,0,0,1,0,0,1,0,0.593156,0,0.333333,0.333333,0.333333,1,0,0,1,1,0.125,0.111111,0.5,0.25,0,0.285714,0.111111,21.35,1.016,0.746,16.2
0,0,1,0.99,0,0.01,0.34,0.66,0.688213,0,0.333333,0,1,0,0,0,0.5,0.25,0.25,0.333333,0,0,0,1,0.008333333,13.07,0.92,0.55,6.54
1,0,0,1,0,0,1,0,0.593156,0,0.333333,0.333333,0.333333,0,0,0,0.5,0.25,0.75,0.0555556,0,0,0,0.2,0.333333,17.45,0.977,0.6113,10.64
0,0,1,1,0,0,1,0,0.657795,0,0.333333,1,0.333333,1,1,1,0.5,0.75,0.5,0.333333,0,0,0,0.857143,0.111111,14.87,1.199,0.787,14.03
0,0,1,1,0,0,0.666667,0.333333,0.730038,0,0.333333,0.333333,0.333333,0,0,0,0.5,0.25,0.1875,0.444444,0,0,0,0.8,0.0222222,10.8,1.18,0.69,8.8
0,0,1,1,0,0,0.666667,0.333333,0.730038,0,0.333333,0.333333,0.333333,0,0,0,0.5,0.25,0.1875,0.444444,0,0,0,0.8,0.0222222,10,1.14,0.71,8.2
0,0,1,1,0,0,0.666667,0.333333,0.730038,0,0.333333,0.333333,0.333333,0,0,0,0.5,0.25,0.1875,0.444444,0,0,0,0.8,0.0222222,11.8,1.19,0.68,9.5
0,0,1,1,0,0,0.666667,0.333333,0.730038,0,0.333333,0.333333,0.333333,0,0,0,0.5,0.25,0.1875,0.444444,0,0,0,0.8,0.0222222,12.2,1.2,0.67,9.8
0,0,1,1,0,0,0.666667,0.333333,0.726236,0,0.666667,0.333333,0.666667,0,0,0,0.5,0.75,0.625,0.333333,0,0,0,0.8,0.0666667,11.93,1.203,0.69,9.9
0,0,1,1,0,0,0.666667,0.333333,0.726236,0,0.666667,0.333333,0.666667,0,0,0,0.5,0.75,0.625,0.333333,0,0,0,0.8,0.0666667,11.98,1.256,0.77,11.59
0,0,1,1,0,0,0.666667,0.333333,0.726236,0,0.333333,0.333333,0.666667,0,0,0,0.5,0.75,0.625,0.333333,0,0,0,0.8,0.0666667,13.56,1.243,0.74,12.52
0,0,1,1,0,0,0.666667,0.333333,0.726236,0,0.333333,0.333333,0.666667,0,0,0,0.5,0.75,0.625,0.333333,0,0,0,0.8,0.0666667,13.5,1.22,0.72,11.79
0,0,1,1,0,0,0.666667,0.333333,0.726236,0,0.333333,0.333333,0.666667,0,0,0,0.5,0.75,0.625,0.333333,0,0,0,0.8,0.0666667,12.18,1.225,0.74,11.01
0,0,1,1,0,0,0.666667,0.333333,0.726236,0,0.333333,0.333333,0.666667,0,0,0,0.5,0.75,0.625,0.333333,0,0,0,0.8,0.0666667,11.8,1.242,0.69,10.12
0,0,1,1,0,0,0.666667,0.333333,0.726236,0,0.666667,0.333333,0.666667,0,0,0,0.5,0.75,0.625,0.333333,0,0,0,0.8,0.0666667,11.64,1.283,0.79,11.8
0,1,0,0,1,0,1,0,0.547529,1,1,0.666667,0.666667,1,0,1,0.5,0.5,0.625,1,0,0,1,0.2,0.111111,20.5,0.485,0.671,6.7
0,1,0,0,1,0,1,0,0.547529,1,1,0.666667,0.666667,1,0,1,0.5,0.5,0.625,1,0,0,1,0.2,0.111111,20.9,0.486,0.643,6.5
0,1,0,0,1,0,1,0,0.547529,1,1,0.666667,0.666667,1,0,1,0.5,0.5,0.625,1,0,0,1,0.2,0.111111,18.7,0.547,0.609,6.2
0,0.8,0.2,1,0,0,1,0,0.598859,0,0.666667,0.333333,0.333333,0,0,0,0.5,0.75,0.5,0.666667,0,0,1,0.285714,0.111111,21.73,1.03,0.7237,16.18
1,0,0,1,0,0,1,0,0.614068,0,0.333333,0.333333,0.333333,0,0,0,0.5,0.25,0.625,0.333333,0,0,0,0,0,18.17,0.82,0.3329,4.74
0,0,1,1,0,0,0,1,0.878327,0,0.333333,0,1,0,0,0,0.5,0.75,0.25,0.333333,0,0,0,0.714286,0.0555556,6.98,1.42,0.77,7.58
1,0,0,1,0,0,1,0,0.593156,0,1,0.666667,0.666667,0,0,0,1,0.75,0.625,0.333333,0.666667,0.5,0,0.4,0.222222,22.35,0.759,0.7448,12.63
0.5,0.5,0,0.75,0.25,0,1,0,0.505703,1,1,0.666667,0.666667,1,0,0,1,1,0.125,0.166667,0.666667,0.75,1,0.285714,0.111111,23.03,0.78,0.79,14.19
0.8,0,0.2,0.5,0.5,0,1,0,0.501901,1,1,0.666667,0.666667,0,1,1,1,1,0.125,0.166667,0.666667,0.666667,1,0.285714,0.111111,20.58,0.6,0.607,7.5
1,0,0,1,0,0,1,0,0.570342,0,0.666667,0.333333,0.333333,0,0,0,0.5,0.25,0.25,0.166667,0,0,0,0.2,0.333333,20.9,0.99,0.65,13.5
1,0,0,1,0,0,1,0,0.570342,0,0.333333,1,0.333333,0,0,0,0.5,0.25,0.75,0.666667,0,0,0,0.2,0.333333,20.35,0.993,0.686,13.86
0,0,1,1,0,0,0.666667,0.333333,0.722433,0,0.333333,0.333333,0.333333,1,0,0,1,0.75,0.125,0.111111,0.666667,0.666667,0,0.285714,0.111111,14.33,1.16,0.6571,10.91
0,0,1,1,0,0,0.666667,0.333333,0.722433,0,0.333333,0.333333,0.333333,1,0,0,1,0.75,0.125,0.111111,0.666667,0.666667,0,0.342857,0.111111,15.57,1.18,0.7456,13.69
0,0,1,1,0,0,0.666667,0.333333,0.722433,0,0.333333,0.333333,0.333333,1,0,0,1,0.75,0.125,0.111111,0.666667,0.75,1,0.571429,0.111111,14.86,1.18,0.7299,12.8
0,1,0,0,1,0,1,0,0.532319,1,1,0.666667,0.666667,0,0,0,0.5,0.75,0.625,0.333333,0,0,0,0.271429,0.166667,18.98,0.386,0.5938,4.36
0,1,0,0,1,0,1,0,0.532319,1,1,0.666667,0.666667,0,0,0,0.5,0.75,0.625,0.333333,0,0,0,0.271429,0.166667,18.39,0.363,0.5853,3.91
0,1,0,0,1,0,1,0,0.532319,1,1,0.666667,0.666667,0,0,0,0.5,0.75,0.625,0.333333,0,0,0,0.271429,0.166667,18.29,0.327,0.5076,2.86
0,1,0,0,1,0,1,0,0.532319,1,1,0.666667,0.666667,0,0,0,0.5,0.75,0.625,0.333333,0,0,0,0.271429,0.166667,21.54,0.477,0.6417,6.59
0,1,0,0,1,0,1,0,0.532319,1,1,0.666667,0.666667,0,0,0,0.5,0.75,0.625,0.333333,0,0,0,0.271429,0.166667,20.51,0.485,0.6221,6.19
0.15,0.8,0.05,1,0,0,1,0,0.593156,0,0.333333,0,1,1,0,0,1,0.75,0.125,0.111111,0.666667,0.5,1,0.285714,0.333333,24.23,1.01,0.78,19.11
0.08,0.92,0,1,0,0,1,0,0.581749,0,0.666667,1,0.333333,0,0,0,1,0.75,0.375,0.333333,0.416667,0.5,0,0.428571,0.166667,24.42,1.14,0.7753,21.53
0.14,0.8,0.06,1,0,0,1,0,0.589354,1,1,0,0.666667,1,0,1,1,0.75,0.125,0.111111,0.833333,0.5,1,0.285714,0.333333,24.53,1.18,0.8426,24.39
0.14,0.8,0.06,1,0,0,1,0,0.589354,1,1,0,0.666667,1,0,1,1,0.75,0.125,0.111111,0.833333,0.5,1,0.285714,0.333333,24.55,1.19,0.8372,24.46
0.14,0.8,0.06,1,0,0,1,0,0.589354,1,1,0,0.666667,1,0,1,1,0.75,0.125,0.111111,0.833333,0.5,1,0.285714,0.333333,24.48,1.17,0.8298,23.74
0,0.8,0.2,1,0,0,0.6,0.4,0.676806,1,1,0,0.666667,1,0,1,0.5,0.75,0.625,0.333333,0,0,1,0.285714,0.111111,24.74,1.19,0.7633,22.47
0,0.8,0.2,1,0,0,0.6,0.4,0.676806,1,1,0,0.666667,1,0,1,0.5,0.75,0.625,0.333333,0,0,1,0.285714,0.111111,24.74,1.18,0.7259,21.19
0,0.8,0.2,0.5,0.5,0,1,0,0.460076,1,1,0.666667,1,0,1,1,1,0.75,0.1875,0.111111,0.666667,0.666667,1,0.371429,0.0777778,32.2,0.89,0.809,23.2
0.3,0.7,0.5,0.5,0,0,1,0,0.48289,1,1,0.666667,0.666667,1,0,0,1,0.75,0.125,0.0555556,0.666667,0.666667,1,0.285714,0.111111,30.2,0.82,0.786,19.3
0,0.75,0.25,0.6,0.4,0,1,0,0.471483,1,1,0.666667,0.666667,1,0,0,0.5,1,0.5,0.333333,0,0,1,0.285714,0.0777778,30.56,0.88,0.8,21.6