Folder: machine-learning-for-perovskite/2.Decision tree/.ipynb_checkpoints

File: data-checkpoint.csv
MA_ratio,FA_ratio,Cs_ratio,Pb_ratio,Sn_ratio,other_ratio,I_ratio,Br_ratio,po_electrode,ETL/ETM,HTL/HTM,ne_eletrode,effective area (cm^2),additive_O,additive_I,additive_H,passivation,step,dissolvent,coated1_s(rpm),coated1_t (s),coated2_s(rpm),coated2_t (s),anti-solvent,anneal_T (℃),anneal_t (min),,Jsc (mA/cm2),Voc (V),FF,PCE (%)
0.933271,0,0,0.526316,0,0,0.824516,0,1,3,1,0.666667,0.05,0,0,0,1,0,0.75,0.5,0.222222,0,0,0.115,0.285714,0.0222222,,0.650769,0.644918,0.920094,0.479075
0,0,0.933271,0.526316,0,0,0,1,0.5,1,0.333333,1,0.0285714,0,0,0,0,1,1,0.25,0.333333,0.333333,0.166667,0.12,0.714286,0.0555556,,0.268923,0.771644,0.886016,0.323236
0.839944,0,0.0933271,0.526316,0,0,0.824516,0,1,2,0.666667,0.666667,0.0285714,0,0,0,1,1,0.75,0.125,0.111111,0.666667,0.5,0.1,0.428571,0.111111,,0.72,0.65872,0.884841,0.729374
0.933271,0,0,0,1,0,0.494709,0.4,1,3,1,0.666667,0.0714286,0,0,0,0,1,0.75,0.125,0.166667,0.666667,0.75,0.7,0.285714,0.111111,,0.0316923,0.0941029,0.599295,0.002789956
0,0,0.933271,0.526316,0,0,0,1,0.5,1,0.333333,1,0.0857143,0,0,0,0,0,0.25,0.375,0.333333,0,0,0,0.714286,0.0555556,,0.196923,0.74655,0.787309,0.203268
0,0,0.933271,0.515789,0,0.0279916,0.549677,0.333333,0.5,1,0.333333,0.333333,0.113571,0,0,0,1,1,0.75,0.125,0.111111,0.666667,0.5,0,0.285714,0.0555556,,0.470769,0.654329,0.821387,0.438422
0,0.963391,0,0.526316,0,0,0.824516,0,0.5,1,0.333333,0.666667,0.0892857,0,0,0,0,0,0.75,0.5,0.333333,0,0,0.5,0.428571,0.0555556,,0.698462,0.6399,0.810811,0.637704
0,0.770713,0.186654,0.526316,0,0,0.780541,0.0533333,0.5,1,0.333333,0.333333,0.114286,0,1,1,0,1,0.75,0.125,0.111111,1,0.25,0.1,0.285714,0.111111,,0.673846,0.673149,0.871915,0.691511
0.0298647,0.818882,0.0466636,0.526316,0,0,0.680225,0.188,0.5,1,0.333333,0.333333,0.114286,0,1,1,0,1,0.75,0.125,0.111111,1,0.333333,0.01,0.285714,0.666667,,0.624615,0.685069,0.822562,0.617776
0.167989,0.693642,0.0933271,0.263158,0.5,0,0.824516,0,1,3,1,0.666667,0.075,0,1,1,1,1,0.5,0.625,0.111111,0,0,0,0.285714,0.0777778,,0.870769,0.451694,0.767333,0.530092
0,0,0.933271,0.526316,0,0,0.549677,0.333333,0.5,1,0.333333,0.333333,0.107143,0,0,0,0,0,0.25,0.1875,0.444444,0,0,0,0.8,0.111111,,0.333846,0.752823,0.822562,0.362694
0.933271,0,0,0.526316,0,0,0.824516,0,0.5,1,0.333333,0.333333,0.0507143,1,0,0,1,1,0.25,0.125,0.111111,0.5,0.25,0,0.285714,0.111111,,0.700615,0.609159,0.813161,0.609805
0,0,0.933271,0,1,0,0.797032,0.0333333,0.5,1,0.333333,0.333333,0.142857,0,1,0,1,0,0.5,0.25,0.444444,0,0,0,0.285714,0.111111,,0.743385,0.139272,0.387779,0.0701475
0,0,0.933271,0,1,0,0,1,0.5,1,0.333333,0.333333,0.05,0,0,0,0,0,0.25,0.1875,0.444444,0,0,0,0.8,0.0222222,,0.338462,0.784191,0.881316,0.410522
0,0,0.933271,0.526316,0,0,0.549677,0.333333,0.5,2,0.666667,0.666667,0.0857143,0,0,0,0,0,0.75,0.625,0.333333,0,0,0,0.8,0.0666667,,0.375385,0.742158,0.787309,0.385413
0,0,0.933271,0.526316,0,0,0.549677,0.333333,0.5,1,0.333333,0.666667,0.0857143,0,0,0,0,0,0.75,0.625,0.333333,0,0,0,0.8,0.0666667,,0.404923,0.782936,0.869565,0.484257
0,0,0.933271,0.526316,0,0,0.549677,0.333333,0.5,1,0.333333,0.666667,0.0857143,0,0,0,0,0,0.75,0.625,0.333333,0,0,0,0.8,0.0666667,,0.392923,0.76537,0.810811,0.426465
0,0.963391,0,0,1,0,0.824516,0,1,3,1,0.666667,0.0160714,1,0,1,1,0,0.5,0.625,1,0,0,0.8,0.2,0.111111,,0.652308,0.303011,0.782609,0.271024
0,0.963391,0,0.526316,0,0,0.824516,0,0.5,2,0.666667,0.333333,0.0571429,0,0,0,0,0,0.75,0.5,0.666667,0,0,0.75,0.428571,0.111111,,0.691077,0.564617,0.652879,0.450777
0.933271,0,0,0.394737,0.25,0,0.824516,0,0.5,3,1,0.666667,0.0642857,0,0,0,1,1,0.75,0.625,0.333333,0.666667,0.5,0,0.342857,0.222222,,0.611077,0.590339,0.834548,0.530092
0.933271,0,0,0.263158,0.5,0,0.824516,0,1,3,1,0.666667,0.0714286,0,0,0,0,1,1,0.125,0.166667,0.666667,0.666667,0.3,0.285714,0.111111,,0.573846,0.388959,0.646298,0.253487
0.933271,0,0,0.394737,0.25,0,0.824516,0,0.5,3,1,0.666667,0.0642857,1,0,0,1,1,0.75,0.625,0.333333,0.833333,0.5,0,0.342857,0.222222,,0.431077,0.457967,0.916569,0.55839
0,0,0.933271,0.526316,0,0,0.549677,0.333333,0.5,1,0.333333,0.333333,0.0642857,1,0,0,1,1,0.75,0.125,0.111111,0.666667,0.666667,0.278,0.371429,0.111111,,0.456,0.702635,0.80658,0.455161
0,0,0.933271,0.526316,0,0,0.824516,0,0.5,1,0.333333,0.333333,0.0642857,1,1,1,1,0,0.75,0.5,0.333333,0,0,0,0.857143,0.111111,,0.450462,0.760979,0.92832,0.559187
0.001463212,0.006259101,0.924076,0.521543,0,0.008965474,0.545576,0.329883,0.510686,0.992024,0.327257,0.993868,0.0494192,0.003003714,1.00376,0.01383661,0.994085,0.00054439,0.75192,0.348036,0.271199,0,0.000171011,0,0.992613,0.05082,,0.422154,0.734003,0.79906,0.434436
0.0442287,0.919692,0,0.999021,0.006626329,0.001789396,0.628517,0.0777798,0.507423,1.99587,0.661217,0.329015,0.0781245,0.996949,1.00165,0.004181612,0.997497,1.01387,1.0038,0.0312145,0.113539,0.670257,0.506311,0.202814,0.43601,0.106739,,0.759692,0.683814,0.878966,0.802312
0.925789,0,0,0.003228085,1.00805,0,0.809584,0.0107152,0.502668,1.00467,0.333934,0.338223,0.0908831,0,1.00107,0.990512,0.00685884,0.000426042,0.509026,0.190354,0.338442,0,0,0.007734477,0.284617,0.228987,,0.612923,0.236826,0.607873,0.155042
0,0,0.93155,0.528205,0.00059786,0.003255653,0,1.011,0.504187,0.999213,0.333319,0.334648,0.109557,0.001893754,0.003342462,0,0.000694521,0,0.242836,0.313193,0.678531,0,0,0.00282843,0.216724,0.33414,,0.207692,0.627353,0.869565,0.198485
0.005733138,0,0.935837,0.522344,0.004065302,0.0220888,0.001626333,1.00375,0.495864,0.995092,0.334997,1.0001,0.0624156,0,0,0.00034777,0.996292,1.00084,0.253937,0.249788,0.330089,0.331853,0.499153,0.010334,0.713884,0.05877056,,0.212,0.859473,0.896592,0.291351
0,0.959902,0,0.526122,0.001230041,0,0.820301,0.008028561,0.497638,1.00462,0.338914,0.66861,0.0846738,0.004912371,0,0,0,0.004984467,0.757248,0.50716,0.329211,0,0.001640577,0.490153,0.426836,0.0511646,,0.646154,0.608532,0.764982,0.530092
0.00044338,0.965776,0,0.527129,0,0,0.821018,0.00153404,0.500427,1.00211,0.332243,0.673393,0.0884132,0,0.006985352,0,0,0,0.742269,0.504429,0.331398,0,0.0057593,0.508955,0.431222,0.06464132,,0.692308,0.664994,0.858989,0.697489
0.04355257,0.727131,0.142848,0.522052,0,0.004399244,0.670571,0.193001,0.505767,1.0026,0.331492,0.33916,0.110009,0.008384528,0.9942668,1.00486,0,0.999269,0.753619,0.126242,0.117402,0.997551,0.334978,0.0119449,0.293804,0.663858,,0.643077,0.65872,0.857814,0.637704
0.193845,0.769294,0.002033696,0.264575,0.504292,0,0.820217,0,1.00072,2.99918,1.00665,0.668854,0.0669662,0.003108684,0.993938,0.99782,0.999041,0.991833,0.503558,0.628797,0.111487,0,0,0.002953012,0.283959,0.0815389,,0.950769,0.483061,0.743831,0.605819
0.000555263,0,0.93973,0.528914,0.005564745,0.004915548,0.551976,0.330331,0.500418,1.00604,0.339418,0.336014,0.107087,0,0,0,0.001714423,0.00276821,0.249835,0.183186,0.444309,0.000842285,0.004254364,0.002167856,0.798616,0.115207,,0.268615,0.727729,0.705053,0.243125
0.933942,0,0.002138812,0.516811,0.007047233,0,0.821593,0.004917738,0.494568,0.999473,0.329462,0.333841,0.0526784,1.00511,0.004834417,0,1.0012,0.995915,0.252855,0.128354,0.11567,0.501736,0.259027,0,0.288556,0.10947,,0.685538,0.612296,0.819036,0.604225
0.927392,0.006537903,0,0.521684,0.006727279,0.002896612,0.330957,0.497778,0.503498,1.00392,0.332014,0.337984,0.140237,0.005421615,0,0,0,0.005867599,0.253887,0.738996,0.0515849,0,0.000868529,0,0.202098,0.33903,,0.195385,0.523212,0.615746,0.111598
0,0.000728003,0.931422,0.00723395,1.00601,0,0,1.00543,0.499393,0.999565,0.339035,0.337119,0.0489711,0.005827508,0.002205771,0.002747898,0.009290308,0,0.25077,0.187054,0.446864,0.006025343,0,0,0.788362,0.0305744,,0.313846,0.727729,0.857814,0.346752
0,0.003516432,0.931725,0,1.00409,0.006766907,0.005404696,1.00632,0.495734,0.996413,0.335407,0.325092,0.0446838,0,0.008972644,0.001143298,0,0,0.254164,0.187153,0.444053,0.002942621,0,0,0.799729,0.025649,,0.36,0.76537,0.822562,0.398565
0.008562852,0,0.934407,0.527584,0,0,0.551156,0.3381,0.498142,1.99878,0.657693,0.668483,0.0900436,0,0.009944469,0,1.00386,0.000308289,0.752012,0.634883,0.33399,0.002261827,0,0,0.792635,0.0674748,,0.365846,0.774153,0.834313,0.415305
0.003058401,0.002611967,0.932093,0.524515,0,0.005549063,0.553419,0.328005,0.506326,0.993797,0.332024,0.668128,0.088504,0.00425724,0,0,0,0,0.757059,0.621154,0.331113,0,0.005505247,0,0.801508,0.0607983,,0.385846,0.763488,0.857814,0.443603
0,0,0.932434,0,0.997632,0,0.821776,0.001072373,0.502424,1.00164,0.329349,0.334561,0.0901708,0,1.00467,0.9986,0.991098,0,0.745425,0.309841,0.66405,0.0126262,0,0.003514267,0.288328,0.223584,,0.740308,0.183061,0.399765,0.0952571
0.007165624,0.960548,0.000479748,0.00287298,0.989606,9.98E-05,0.818073,0,1.00488,2.99719,1.01237,0.671274,0.0170529,0.996063,0.001474898,0.997081,0.998246,0,0.499644,0.633998,0.996629,0,0.000498001,0.801137,0.201052,0.106351,,0.553846,0.337516,0.827262,0.271024
0.7475949,0.00416597,0.18204,0.519324,0.000646511,0,0.826106,0.005616378,0.495056,2.00111,0.667316,0.326268,0.0647538,0.008547631,0.989836,0.008708664,1.00007,0,0.748329,0.495323,0.665844,0,0,0.750919,0.289989,0.106097,,0.664615,0.621079,0.852409,0.620167
0.230362,0.725842,0.006046814,0.392601,0.247363,0,0.825228,0,1.00558,2.0013,0.663901,0.668306,0.068066,1.00298,0,0.000572958,0,0.997523,1.00377,0.130091,0.164503,0.666486,0.746033,0.697387,0.289509,0.11375,,0.509231,0.439147,0.763807,0.30012
0.0121837,0,0.93657,0.531884,0.004436599,0,0.550797,0.333069,0.495699,2.99832,1.00022,0.662534,0.04951875,1.00012,1.00293,0,1.00257,1.00261,0.751637,0.120296,0.054621,0.507366,0.504095,0,0.454032,0.0616017,,0.478462,0.72271,0.949354,0.576724
0.001671445,0,0.929449,0.519648,0,0.003438396,0.547559,0.343839,0.499769,0.999881,0.337947,0.329595,0.058867,0.000562345,0,0.003031465,0,1.00314,0.75496,0.121498,0.111247,0.664098,0.672037,0.280265,0.371808,0.118485,,0.416923,0.677541,0.763807,0.37784
0.00487901,0.00186092,0.932098,0.526937,0.004358267,0.001933403,0.553231,0.32787,0.496146,0.993667,0.32918,0.33208,0.0655056,1.00251,0,0,0.993027,0.994317,0.750279,0.122973,0.110605,0.660966,0.760274,0.143847,0.570334,0.115226,,0.468308,0.752823,0.891774,0.552411
0.234216,0.716564,0.001729528,0.001826429,0.854234,0.216686,0.825108,0.003491802,1.00583,3.00325,1.00084,0.337723,0.0787952,0,1.00397,0.002757732,0.000641743,0,0.25117,0.624919,0.556817,0,0.000300769,0.289117,0.197762,0.111748,,0.364308,0.0941029,0.540541,0.0318852