Folder: machine-learning-for-perovskite/app/.ipynb_checkpoints

File: data-checkpoint.csv
MA,FA,Cs,Pb,Sn,Other,I,Br,Gap,Po,ETL,HTL,Ne,Area,Add_O,Add_I,Add_H,Passivation,Step,Solvent,Coated1_v,Coated1_t,Coated2_v,Coated2_t,antisolvent,Anneal_T,Anneal_t,Jsc,Voc,FF,PCE
1,0,0,1,0,0,1,0,0.61597,1,1,1,0.666667,0.05,0,0,0,1,0.5,0.75,0.5,0.222222,0,0,0.115,0.285714,0.0222222,21.15,1.028,0.783,12.02
0,1,0,0,1,0,1,0,0.51711,1,1,0.666667,1,0.0285714,1,1,1,0,0.5,0.75,1,0.666667,0,0,0.12,0.228571,0.111111,21.19,0.66,0.6689,9.38
0,0,1,1,0,0,0,1,0.882129,0,0.333333,0,1,0.0285714,1,0,0,0,1,0.25,0.25,0.333333,0.333333,0.166667,0.12,0.714286,0.0555556,7.23,1.21,0.719,6.27
1,0,0,1,0,0,1,0,0.570342,1,0.666667,0.333333,0.666667,0.0607143,0,0,0,0,0.5,0.75,0.5,0.0666667,0,0,0,0.285714,0.111111,22.47,1.07,0.716,17.21
1,0,0,0,1,0,0.666667,0.333333,0.593156,0,0.333333,0.333333,0.333333,0.0714286,0,0,0,0,0.5,0.25,0.5,0.5,0,0,0,0.357143,0.333333,14.38,0.77,0.5,5.48
0.16,0.79,0.05,0.664,0.336,0,0.826667,0.173333,0.524715,1,1,0.666667,0.666667,0.0285714,0,0,0,0,0.5,0.75,0.625,0.444444,0,0,0,0.285714,0.333333,26.45,0.79,0.7545,15.76
0,0,1,0.99,0,0.01,0.666667,0.333333,0.722433,0,0.333333,1,0.333333,0.113571,0,0,0,1,1,0.75,0.125,0.111111,0.666667,0.5,0,0.285714,0.0555556,14.3,0.938,0.622,8.3
0,1,0,1,0,0,1,0,0.574144,0,0.333333,0.333333,0.666667,0.0892857,0,0,0,0,0.5,0.75,0.5,0.333333,0,0,0.5,0.428571,0.0555556,22.5,1.02,0.704,16.1
0,0,1,0.95,0,0.05,1,0,0.638403,0,0.333333,0.333333,0.333333,0.0642857,0,0,0,0,0.5,0.75,0.1875,0.111111,0.666667,0.5,0,0.514286,0.1,20.3,1.096,0.718,15.98
0,0.83,0.17,1,0,0,0.6,0.4,0.661597,0,0.666667,0.333333,0.666667,0.0656429,0,0,0,0,0.5,0.25,0.25,0.5,0,0,0,0.528571,1,19.4,1.2,0.751,17.1
0,0,1,1,0,0,0.666667,0.333333,0.730038,0,0.333333,0.333333,0.333333,0.107143,0,0,0,0,0.5,0.25,0.1875,0.444444,0,0,0,0.8,0.111111,8.73,1.16,0.6,6.1
1,0,0,1,0,0,1,0,0.593156,0,0.333333,0.333333,0.333333,0.0507143,1,0,0,1,1,1,0.125,0.111111,0.5,0.25,0,0.285714,0.111111,22.28,0.976,0.697,15.16
1,0,0,1,0,0,1,0,0.593156,0,0.333333,0.333333,0.333333,0.142857,0,0,0,0,0.5,0.25,0.75,0.0555556,0,0,0,0.2,0.333333,17.45,0.977,0.6113,10.64
0,0,1,1,0,0,0.666667,0.333333,0.730038,0,0.333333,0.333333,0.333333,0.05,0,0,0,0,0.5,0.25,0.1875,0.444444,0,0,0,0.8,0.0222222,10,1.2,0.75,9
0,0,1,1,0,0,0.666667,0.333333,0.730038,0,0.333333,0.333333,0.333333,0.05,0,0,0,0,0.5,0.25,0.1875,0.444444,0,0,0,0.8,0.0222222,12,1.22,0.7,10.3
0,0,1,1,0,0,0.666667,0.333333,0.726236,0,0.666667,0.333333,0.666667,0.0857143,0,0,0,1,0.5,0.75,0.625,0.333333,0,0,0,0.8,0.0666667,11.98,1.256,0.77,11.59
0,0,1,1,0,0,0.666667,0.333333,0.726236,0,0.333333,0.333333,0.666667,0.0857143,0,0,0,0,0.5,0.75,0.625,0.333333,0,0,0,0.8,0.0666667,13.03,1.227,0.72,11.51
0,0,1,1,0,0,0.666667,0.333333,0.726236,0,0.333333,0.333333,0.666667,0.0857143,0,0,0,0,0.5,0.75,0.625,0.333333,0,0,0,0.8,0.0666667,9.91,1.296,0.71,9.12
0,1,0,0,1,0,1,0,0.547529,1,1,0.666667,0.666667,0.0160714,1,0,1,1,0.5,0.5,0.625,1,0,0,0.8,0.2,0.111111,20.9,0.486,0.643,6.5
0,0.75,0.25,1,0,0,1,0,0.60038,0,0.666667,0.333333,0.333333,0.0571429,0,0,0,0,0.5,0.75,0.5,0.666667,0,0,0.75,0.285714,0.111111,20.74,0.99,0.6636,13.68
1,0,0,0.75,0.25,0,1,0,0.448669,0,1,0.666667,0.666667,0.0642857,0,0,0,1,1,0.75,0.625,0.333333,0.666667,0.5,0,0.342857,0.222222,20.65,0.9578,0.7416,14.67
0.8,0,0.2,0.5,0.5,0,1,0,0.501901,1,1,0.666667,0.666667,0.0714286,0,1,1,1,0.5,1,0.125,0.166667,0.666667,0.666667,0.3,0.285714,0.111111,20.58,0.6,0.607,7.5
1,0,0,1,0,0,1,0,0.589354,0,0.333333,0.333333,0.333333,0.114286,0,0,0,0,0.5,0.25,0.8125,0.333333,0,0,0,0.285714,0.111111,20.8,1.101,0.67,13.6
0,0,1,1,0,0,0.666667,0.333333,0.722433,0,0.333333,0.333333,0.333333,0.0642857,0,0,0,0,0.5,0.75,0.125,0.111111,0.666667,0.75,0.15,0.571429,0.111111,14.73,1.1,0.6547,10.64
0,1,0,0,1,0,1,0,0.532319,1,1,0.666667,0.666667,0.0285714,0,0,0,0,0.5,0.75,0.625,0.333333,0,0,0,0.271429,0.166667,18.39,0.363,0.5853,3.91
0,1,0,0,1,0,1,0,0.532319,1,1,0.666667,0.666667,0.0285714,0,0,0,1,0.5,0.75,0.625,0.333333,0,0,0,0.271429,0.166667,21.19,0.475,0.637,6.42
0.000323127,0.00158715,0.998749,0.999649,0.00254741,0.000616421,0.665816,0.331604,0.719071,0,0.329113,0.331399,1.0008,0.05107486,0.00153431,0.001366962,0,0,0.497781,0.754088,0.350335,0.275303,0,0.001186321,0,1.00079,0.0544114,11.76,0.97,0.58,6.6
0,0.995809,0,0,1.00588,0,1.00142,0.000550657,0.558161,0.99888,0.999897,0.667197,0.995425,0.0267256,0.996785,0.99828,0.997206,0.999629,0.498365,0.746409,0.997821,0.658566,0.001513592,0,0.124867,0.233835,0.109712,21.89,0.84,0.7886,14.5
0.000702556,0.995696,0,1.00175,0.003491676,0,0.991806,0,0.584605,0.997876,0.664329,0.32971,0.335149,0.0638163,1.00357,0.006731156,0.999559,0.006926301,0.500431,0.251329,0.503405,0.331646,0,0.002649226,0.005719932,0.429947,0.109949,24.75,1.117,0.737,20.33
0.999503,0,0,0.898744,0.051628,0.043579,0.961984,0.030541,0.600779,0,0.331905,0.333091,0.660603,0.0605165,1.00182,0,0.00248485,0.999723,1.00388,1.00563,0.121902,0.225664,0.665845,0.663428,0.001577618,0.288404,0.106106,23.97,1.08,0.81,21.08
0,0,1.00257,0.948759,0.0428329,0.005224119,1.00408,0.002899634,0.605511,0.002358822,0.332141,0.998648,0.334527,0.0596186,0.003267532,0.998417,1.00293,0.003924902,0.999561,0.74746,0.0980918,0.110661,0.583051,0.580197,0.002429206,0.284815,0.162502,17.35,0.93,0.6607,10.66
0.004856928,0.000706452,0.996834,1.00357,1.0025,0.00148361,1.00509,3.19E-06,0.645809,0,0.334833,0.001186186,0.995841,0.716282,0.005243336,0.000838129,0,0.003789254,0.492715,0.252415,0.250379,0.333891,0,5.24E-05,0,0.203145,0.337211,6.96,1.26,0.57,5
0,0.000562734,1.00523,0.997569,0.002375588,0.000981129,0.33137,0.664902,0.719338,0,0.337771,0,0.99473,0.0626369,0.002867914,0.001677453,0,0.000278631,0.5089,0.748686,0.24959,0.338357,0.001283097,0,0,1.0017,0.107211,12.32,1.08,0.62,8.25
0,0.998449,0,1.0045,0.004271114,0,1.00403,0.00206758,0.576851,0.003527102,0.337701,0.334392,0.673255,0.0877252,0.00685848,0,0.000748977,0,0.495601,0.750102,0.500961,0.334188,0,0.002317944,0.498238,0.427882,0.0542585,23,1.05,0.721,17.4
0.170929,0.733762,0.102836,0.999646,0.00031138,0.001689505,0.828656,0.169461,0.615679,0,0.334994,0.336497,0.335894,0.111018,0.001039937,1.00365,0.996933,0.001956021,0.995405,0.752797,0.124323,0.106958,0.996765,0.337272,0.0131045,0.290196,0.671513,21.9,1.12,0.76,18.6
0.0231348,0.077191,0.02260486,0.5007526,0.500556,0.001490015,1.00022,0,0.477139,0.998027,0.999748,1.00201,0.665267,0.08021083,0.005551163,0.99952,0.999492,1.00012,0.497497,0.502839,0.623179,0.10988,0.000699472,0.002563396,0.001084717,0.28761,0.0831076,32.5,0.78,0.718,18.2
0,0,0.997122,1.00061,0.008016898,0,0.66702,0.336085,0.729193,0.006088998,0.332365,0.334902,0.335004,0.105711,0.00564316,0,0.003851739,0,0.492486,0.253337,0.187049,0.444435,0.004164126,0.001764028,0.000144974,0.80436,0.10982,10.85,1.2,0.7,9.1
0.997831,0,0.001487138,0.997378,0.000591857,0,0.998838,0,0.59312,0,0.336386,0.32976,0.333659,0.0462367,1.00284,0,0.001320654,0.999485,1.00407,0.999653,0.120575,0.112981,0.496318,0.250662,0,0.283128,0.110267,22.77,0.971,0.692,15.3
0.000787726,9.17E-05,0.994053,0.994991,0,0,0.99962,0,0.657073,0.000665836,0.330089,0.997057,0.335884,0.0699936,0.000991935,0.003613668,4.27E-05,0.000442039,0.499276,0.748499,0.499516,0.335501,0.004913595,0.003308809,0.004273208,0.856317,0.113631,14.64,1.21,0.791,14.01
0.004726052,0,1.00091,0.998171,0,0,0.662059,0.338012,0.732429,0.001775626,0.331532,0.336368,0.333551,0.0551219,0.001055586,0,0.00221783,0.000820495,0.501851,0.249908,0.18137,0.43911,0.001333357,0.000878914,0,0.79822,0.0246882,10.1,1.22,0.73,9
0.000244942,0.001684905,1.00231,0.899954,0,0.100566,0.664231,0.331216,0.721217,0.001799052,0.670671,0.333041,0.333345,0.07155404,0,0,0,0.9999119,0.49575,0.753033,0.372009,0.279798,0,0.001464948,0.502211,0.456312,0.111699,11.39,1.11,0.593,7.6
0,0.002098493,0.999596,0.995778,0.00130852,0.003002675,0.666829,0.333258,0.7243,0.002677727,0.664279,0.330183,0.666861,0.0828691,0,0,0.00177453,0.998058,0.496861,0.749718,0.628486,0.336391,0.001951892,0,0.000349209,0.799374,0.0672394,11.87,1.247,0.74,10.95
0,0,1.0011,1.00132,0,0.007021933,0.673439,0.336399,0.72744,0,0.33209,0.329323,0.664633,0.0905417,0,0,0.002996021,0,0.499942,0.753744,0.627897,0.333704,0,0.003183991,0.003263174,0.801634,0.0661056,13.6,1.149,0.7,10.94
0.004687084,1.00148,0.0032812,0,1.0033,0,1.0014,0.002899716,0.549486,1.00098,0.997831,0.6666319,0.663536,0.01663029,0.994145,0.00127683,1.00405,0.998272,0.4984,0.497425,0.62436,0.997785,0,0.000197238,0.801179,0.193962,0.115085,19.4,0.494,0.64,6.1
0,0.99517,0.000644745,0,1.00548,0.001121961,0.99913,0.001584674,0.548606,0.99948,0.996671,0.663379,0.666735,0.011297,1.00124,0.001983017,1.00353,0.999946,0.506776,0.498836,0.629371,1.0008,0.001508404,0,0.800537,0.198302,0.111108,19,0.545,0.61,6.3
1.00158,0.001209336,0,1.00282,0,0,0.998397,0.000230191,0.60064,0.001091478,0.329398,0.33569,0.334939,0.08255669,0,0.002957926,0,0.997119,0.500693,0.251011,0.623294,0.332723,0.000139881,0,0,0.285598,0.108947,17.57,0.698,0.4488,5.63
0.997888,0,0,0.749748,0.250932,0.003474958,0.998713,0,0.525387,0.99949,1.00266,0.668435,0.666447,0.0732829,1.00459,0,0,0.002993311,0.499404,0.997726,0.124779,0.166823,0.667459,0.753284,0.703906,0.292865,0.106544,22.44,0.82,0.78,14.35
0.00139067,0,1.00021,1.00376,0.001832643,0.000305216,0.668331,0.332905,0.715299,0.002740883,1.00342,1.00264,0.671302,0.0513921,1.00041,0.999998,0,1.00224,0.506288,0.751386,0.127129,0.0616595,0.498433,0.499738,0.001064722,0.461844,0.0530999,15.64,1.191,0.8187,15.25
0,0.00303452,1.00151,0.997613,0.001511132,0.004690337,0.669695,0.334938,0.719108,0,0.327583,0.33302,0.337813,0.0658231,0.999184,0,0,0.998624,0.503527,0.756928,0.121609,0.113536,0.663745,0.662908,0,0.316643,0.108412,14.39,1.17,0.6579,11.03
0,0.995596,0,0.002885914,1.0028,0.003122368,0.998617,0.001068845,0.535043,0.997801,0.997912,0.66673,0.66269,0.028073,0.000600256,0,0.00099634,0.000759794,0.495088,0.753869,0.620517,0.33197,0,0,0,0.266273,0.172642,19.95,0.408,0.5822,4.74
0,1.00258,0,0,0.999295,0.000659094,0.999977,0.000887057,0.528752,0.999247,0.998771,0.668878,0.666234,0.0318248,0.001098368,0,0,0.003140342,0.499669,0.749865,0.624712,0.332097,0,0.000263823,0.000951472,0.275045,0.168767,16.51,0.34,0.5769,3.24
0.003619417,0.999611,0.000716881,0,1.00305,0.003272431,1.00244,0.000264059,0.533028,0.9971,1.00446,0.664645,0.66201,0.02989123,0,0.002298487,0.00026446,0.997328,0.501358,0.75075,0.6269216,0.332601,0,0.002853095,0.00483627,0.26953,0.171351,20.52,0.485,0.6129,6.1
0.001346036,0.995867,0,0,1.00069,0,0.996449,0.004427494,0.53798,0.995036,1.00608,0.668758,0.668346,0.0249665,0,1.61E-05,0,1.00458,0.501066,0.758316,0.626057,0.334396,0.001665109,0.001205625,0.002041799,0.271915,0.164587,19.86,0.483,0.6001,5.75