Folder: machine-learning-for-perovskite/4.GBDT/.ipynb_checkpoints

File: data - 副本-checkpoint.csv
MA,FA,Cs,Pb,Sn,Other,I,Br,Gap,Po,ETL,HTL,Ne,Add_O,Add_I,Add_H,Step,Solvent,Coated1_v,Coated1_t,Coated2_v,Coated2_t,Antisolvent,Anneal_T,Anneal_t,Jsc,Voc,FF,PCE
1,0,0,1,0,0,1,0,0.61597,1,1,1,0.666667,0,0,0,0.5,0.75,0.5,0.222222,0,0,1,0.285714,0.0222222,21.15,1.028,0.783,12.02
0,1,0,0,1,0,1,0,0.528517,1,1,0.666667,1,1,1,1,0.5,0.75,1,0.666667,0,0,1,0.228571,0.111111,24.2,0.76,0.6573,12.09
0,1,0,1,0,0,1,0,0.587452,0,0.666667,0.333333,0.333333,1,1,0,1,1,0.0375,0.111111,0.666667,0.5,1,0.428571,0.111111,23.89,1.03,0.756,18.65
1,0,0,0.95,0,0.05,0.966667,0.0333333,0.60076,0,0.333333,0.333333,0.666667,1,0,0,1,1,0.125,0.222222,0.666667,0.666667,0,0.285714,0.111111,22.81,1.13,0.74,19.02
0,0,1,1,0,0,1,0,0.665399,0,0.333333,0,1,0,0,0,0.5,0.5,0.25,0.333333,0,0,0,0.314286,0.111111,13.46,0.71,0.46,4.45
0,0,1,0.8,0,0.2,0,1,0.844106,0,0.333333,0,1,0,0,0,1,0.25,0.25,0.333333,0.333333,0.5,0,0.714286,0.0555556,7.44,1.508,0.745,8.36
0,0.95,0.05,1,0,0,1,0,0.577947,0,0.333333,0.333333,0.666667,0,0,0,0.5,0.75,0.5,0.333333,0,0,1,0.428571,0.0555556,21.3,1,0.689,14.7
0,1,0,1,0,0,1,0,0.574144,0,0.333333,0.333333,0.666667,0,0,0,0.5,0.75,0.5,0.333333,0,0,1,0.428571,0.0555556,22.1,0.99,0.69,15.2
0.1,0.75,0.15,1,0,0,0.83,0.17,0.631179,0,0.333333,0.333333,0.333333,0,1,1,1,0.75,0.125,0.111111,1,0.333333,1,0.285714,0.666667,20.9,1.05,0.73,16
0,0,1,1,0,0,0.666667,0.333333,0.730038,0,0.333333,0.333333,0.333333,0,0,0,0.5,0.25,0.1875,0.444444,0,0,0,0.8,0.111111,10.81,1.21,0.73,9.5
1,0,0,1,0,0,1,0,0.596958,0,0.333333,0.333333,0.333333,0,0,0,1,1,0.125,0.111111,0.5,0.25,0,0.285714,0.111111,17.2,0.811,0.612,8.54
1,0,0,1,0,0,0.88,0.12,0.61597,0,0.333333,0.333333,0.333333,0,0,0,0.5,0.25,0.75,0.0555556,0,0,0,0.2,0.333333,13.89,0.89,0.6531,8.13
0,0,1,1,0,0,0.666667,0.333333,0.730038,0,0.333333,0.333333,0.333333,0,0,0,0.5,0.25,0.1875,0.444444,0,0,0,0.8,0.0222222,10.2,1.16,0.73,8.6
0,0,1,1,0,0,0.666667,0.333333,0.730038,0,0.333333,0.333333,0.333333,0,0,0,0.5,0.25,0.1875,0.444444,0,0,0,0.8,0.0222222,11.4,1.21,0.69,9.6
0,0,1,1,0,0,0.666667,0.333333,0.726236,0,0.666667,0.333333,0.666667,0,0,0,0.5,0.75,0.625,0.333333,0,0,0,0.8,0.0666667,11.87,1.247,0.74,10.95
0,0,1,1,0,0,0.666667,0.333333,0.726236,0,0.333333,0.333333,0.666667,0,0,0,0.5,0.75,0.625,0.333333,0,0,0,0.8,0.0666667,13.44,1.22,0.66,10.78
0,1,0,0,1,0,1,0,0.547529,1,1,0.666667,0.666667,1,0,1,0.5,0.5,0.625,1,0,0,1,0.2,0.111111,21.2,0.483,0.666,6.8
0,0.95,0.05,1,0,0,1,0,0.58327,0,0.666667,0.333333,0.333333,0,0,0,0.5,0.75,0.5,0.666667,0,0,1,0.428571,0.111111,21.69,0.93,0.5852,11.79
0,0,1,1,0,0,0,1,0.878327,0,0.333333,0,1,0,0,0,0.5,0.75,0.25,0.333333,0,0,0,0.714286,0.0555556,6.98,1.42,0.77,7.58
0.9,0,0.1,0.5,0.5,0,1,0,0.486692,1,1,0.666667,0.666667,0,1,1,1,1,0.125,0.166667,0.666667,0.666667,1,0.285714,0.111111,23.32,0.7,0.617,10.07
1,0,0,1,0,0,1,0,0.570342,0,0.333333,0.333333,0.333333,0,0,0,0.5,0.25,0.75,0.666667,0,0,0,0.2,0.333333,20.31,1.036,0.723,15.23
0,0,1,1,0,0,0.666667,0.333333,0.722433,0,0.333333,0.333333,0.333333,0,0,0,1,0.75,0.125,0.111111,0.666667,0.75,1,0.571429,0.111111,14.73,1.1,0.6547,10.64
0,1,0,0,1,0,1,0,0.532319,1,1,0.666667,0.666667,0,0,0,0.5,0.75,0.625,0.333333,0,0,0,0.271429,0.166667,18.27,0.366,0.5699,3.82
0,1,0,0,1,0,1,0,0.532319,1,1,0.666667,0.666667,0,0,0,0.5,0.75,0.625,0.333333,0,0,0,0.271429,0.166667,21.6,0.479,0.6063,6.28
0.05,0.9,0.05,1,0,0,0.9,0.1,0.603042,0,0.333333,1,0.666667,0,0,0,1,0.75,0.125,0.111111,0.666667,0.333333,1,0.285714,0.666667,25.02,1.16,0.8,23.22
0.14,0.8,0.06,1,0,0,1,0,0.589354,1,1,0,0.666667,1,0,1,1,0.75,0.125,0.111111,0.833333,0.5,1,0.285714,0.333333,24.71,1.17,0.8389,24.25
0,1,0,1,0,0,1,0,0.580608,0,0.666667,1,0.333333,0,0,0,1,0.75,0.125,0.0555556,0.833333,0.583333,1,0.285714,0.277778,24.85,1.143,0.8212,22.38
1.00155,0,0.003257823,0.998891,0.002276238,0,1.00363,0.001293994,0.613457,0,0.667486,0.331817,0.335022,0.002524746,0,0,0.496861,0.75121,0.496396,0.33081,0.001053457,0,1.00305,0.27798,0.114019,22.02,0.97,0.758,16.22
3.25E-05,0.999616,0,0.001207033,0.994757,0.001433022,0.999729,0,0.523476,0.998884,1.00236,0.670634,0.994838,1.00061,0.999447,0.997711,0.501545,0.75052,0.997233,0.667107,0,0.003429179,0.998817,0.227942,0.109846,24.81,0.76,0.6959,13.12
0.996944,0.002746905,0,0.999912,0.001228304,0.000704564,0.998231,0,0.615265,0.99921,0.998883,0.996817,0.668359,0,0.005625102,0.002383929,0.497332,0.752409,0.497937,0.220965,0.005193293,0.004590964,1.00597,0.290155,0.022127,21.09,1.06,0.78,18.15
1.00051,0.000269063,0,0.900586,0.0501455,0.04791234,0.965342,0.03194467,0.602917,0,0.335755,0.333468,0.66591,1.00236,0.004378059,0.003881636,1.00027,1.00222,0.125255,0.224438,0.668422,0.666085,0.006498492,0.28557,0.111172,23.97,1.08,0.81,21.08
0,0.002098242,1.00166,1.00027,0,0.003478422,1.00053,0.000418033,0.66356,0,0.333985,0.007248004,1.00243,0.002452719,0.00233703,0.000749755,0.499543,0.497519,0.252919,0.330076,0,0,0,0.314682,0.111291,13.43,0.65,0.38,3.32
0,0.00124392,0.999062,0.699093,0.000587604,0.29955,0,0.998656,0.825981,0.001790139,0.333259,0.003505892,1.005,0,0,0.001400069,1.00542,0.255759,0.249749,0.330281,0.334408,0.497531,0,0.712993,0.0548467,7.45,1.536,0.802,9.2
0,0.900014,0.0991056,1.00452,0.005035591,0,0.99606,0.005506936,0.581445,0.002240173,0.338642,0.327407,0.665358,0,0,0,0.498307,0.748977,0.496526,0.333419,0,0.0036812,1.00418,0.432264,0.0532057,21.6,1.03,0.721,16
0.00239208,0.996366,0,1.00116,0.000197957,0,1.00091,0,0.572755,0,0.332848,0.336785,0.66906,0.004083726,0.002665298,0.000483124,0.503357,0.748101,0.497035,0.334976,0,0.002456415,0.998266,0.425374,0.0557386,22.7,1.03,0.723,17
0.116924,0.830476,0.0475593,1.00449,0.000313167,0,0.829716,0.171027,0.6267556,0,0.33242,0.330014,0.332921,0,1.00183,1.00284,0.999159,0.755019,0.128684,0.107423,1.00049,0.329739,1.00259,0.285969,0.668216,20.3,1.092,0.7,15.5
0,0.005000378,0.996531,0.998988,0,0,0.660855,0.340208,0.731871,0.001558247,0.332681,0.333258,0.334441,0,0,0.003363193,0.498853,0.248605,0.190499,0.448538,0,0.001760682,0.002821782,0.805978,0.111704,9.66,1.18,0.67,7.6
1.00673,0,0,1.00497,0.001497917,0.001087768,0.999083,0.001236143,0.596034,0.004408395,0.330582,0.335176,0.336683,1.00157,0,0.001573146,0.998247,0.999862,0.126677,0.111396,0.501207,0.243909,0.001504512,0.282535,0.106871,22.28,0.976,0.697,15.16
1.00073,0.00563422,0.006856767,1.00148,0.004724384,0,0.743344,0.259457,0.64306,0.004461117,0.333996,0.339198,0.330351,0,0.006488679,0.002352779,0.506023,0.253064,0.749384,0.0585147,0,0.003188289,0.000459663,0.198669,0.331121,10.39,0.936,0.6195,6.13
0,0.005855955,0.999773,1.00386,0.001700835,0.001851367,0.666311,0.335896,0.726941,0,0.332057,0.330392,0.333924,0,0,0,0.499609,0.252574,0.189015,0.446504,0,0.014639,0,0.795778,0.0191095,10.2,1.16,0.73,8.7
0,0.004184308,1.00191,0.997613,0.000556671,0,0.670162,0.336555,0.722955,0,0.666946,0.330189,0.333941,0.005317493,0,0.002637715,0.501672,0.749329,0.376134,0.276144,0.000228977,0,1.00097,0.459129,0.109613,9.06,1.02,0.572,5.3
0.00221767,0.001908704,1.00111,0.999966,0,0.006305653,0.660919,0.335809,0.723517,0,0.668853,0.333167,0.66422,0,0,0,0.508738,0.749484,0.627691,0.335328,0.000209779,0,0,0.794033,0.0654072,12.15,1.287,0.77,12.04
0,0,0.998556,0.997922,0,0,0.665008,0.337569,0.720774,0,0.330811,0.338562,0.660176,0,0.005319647,0,0.498584,0.748811,0.621843,0.33476,0.002707044,0.002732071,0.001749412,0.803333,0.0706592,12.5,1.185,0.72,10.7
0.007700736,1.00014,0,0,0.997807,0,0.995829,0,0.545155,0.993853,1.00265,0.667979,0.664124,0.99914,0.002769295,1.00118,0.499952,0.496546,0.619053,1.00921,0.004074418,0.004626518,1.00328,0.201565,0.114022,20.5,0.485,0.671,6.7
0.00367212,0.903204,0.107182,1.00364,0,0,0.999435,0.002970347,0.593043,0,0.664456,0.329495,0.329659,0.003209165,0,0.004221468,0.498858,0.74987,0.501246,0.671561,0,0,0.99725,0.4276,0.109634,21.8,0.99,0.7167,15.4
0.001584651,2.51E-05,0.996664,0.999187,0.002141678,0,0.002287919,1.00118,0.877556,0,0.331622,0,1.00314,0,0.000600455,0,0.500117,0.752005,0.254636,0.329503,0.005171366,0,0,0.71817,0.05604686,5.91,1.31,0.77,5.94
0.900277,0,0.103392,0.247846,0.747129,0,1.0006,0,0.48057,0.997577,1.00205,0.669155,0.669516,0.005526643,0.996405,0.997459,1.00423,0.996538,0.126436,0.167338,0.665821,0.665424,1.00241,0.283965,0.108722,21.84,0.48,0.609,6.38
1.00026,0,0.005501661,0.994132,0,0,1.00165,0.004091369,0.590967,0,0.334817,0.335833,0.997572,0.00193696,0,0,0.49866,0.246709,0.820032,0.335109,0.002119427,0,0.000676022,0.284968,0.108176,18.7,1.11,0.67,13
0,0,0.996448,0.998563,0,0,0.670699,0.332648,0.723851,0,0.329953,0.330784,0.33242,1.00749,0.002132861,0,1.00106,0.75425,0.121406,0.108887,0.668844,0.744865,0.994805,0.572673,0.10829,15.33,1.22,0.787,14.78
0.000668737,0.997216,0.001316225,0.004352899,0.999299,0,0.99962,0.000668417,0.532368,1.00317,0.995212,0.671555,0.665511,0.000429629,0,0.001886435,0.501507,0.750376,0.624537,0.331698,0.001963352,0.003498122,0.003913424,0.270174,0.164637,18.31,0.363,0.5581,3.71
0,1.00596,0,0.001110613,0.997366,0,0.998119,0,0.529295,1.00042,0.99599,0.668051,0.669168,0.000221315,0,0.001635599,0.503295,0.751093,0.622673,0.33248,1.92E-05,2.15E-05,0,0.27212,0.167939,21.35,0.481,0.6074,6.25
0.0205958,0.981888,0.0521198,1.00322,0,0.000509593,1.00271,0.004903565,0.591194,0.000130988,0.9991,0.004155364,0.99802,0,0.000338779,1.00188,0.998731,0.747533,0.255853,0.280602,0.832782,0.495559,0.99766,0.309836,0.224893,25.57,1.123,0.832,23.88
0.137796,0.803605,0.0630193,1.00018,0.002734603,0,0.996721,0.000163764,0.589109,0.998799,0.996988,0,0.663279,1.00702,0,1.0004,0.996381,0.753892,0.1246,0.109809,0.833423,0.501978,0.9996391,0.286382,0.332271,24.48,1.17,0.8298,23.74
0,1.00198,0,0.996397,0,0.000414398,1.00065,0.001322373,0.581186,0,0.663666,0.998456,0.332734,0,0.001066375,0.003008545,1.00078,0.749047,0.12451,0.0554984,0.830861,0.581996,1.00485,0.292888,0.285336,25.31,1.149,0.827,23.27
0,0.749821,0.246697,0.599404,0.400568,0,1.00027,0,0.47379,1.0008,1.0022,0.668913,0.669112,1.00092,0.000690753,0,0.495419,0.994599,0.496711,0.330704,0,0,0.9989201,0.287218,0.0753101,30.56,0.88,0.8,21.6

File: data-checkpoint.csv
MA_ratio,FA_ratio,Cs_ratio,Pb_ratio,Sn_ratio,other_ratio,I_ratio,Br_ratio,po_electrode,ETL/ETM,HTL/HTM,ne_eletrode,effective area (cm2),additive_O,additive_I,additive_H,passivation,step,dissolvent,coated1_s(rpm),coated1_t (s),coated2_s(rpm),coated2_t (s),anti-solvent,anneal_T (℃),anneal_t (min),,Jsc (mA/cm2),Voc (V),FF,PCE (%)
0.933271,0,0,0.526316,0,0,0.824516,0,1,1,1,0.666667,0.05,0,0,0,1,0,0.75,0.5,0.222222,0,0,0.115,0.285714,0.0222222,,0.650769,0.644918,0.920094,0.479075
0,0,0.933271,0.526316,0,0,0,1,0.5,0.333333,0.333333,1,0.0285714,0,0,0,0,1,1,0.25,0.333333,0.333333,0.166667,0.12,0.714286,0.0555556,,0.268923,0.771644,0.886016,0.323236
0.839944,0,0.0933271,0.526316,0,0,0.824516,0,1,0.666667,0.666667,0.666667,0.0285714,0,0,0,1,1,0.75,0.125,0.111111,0.666667,0.5,0.1,0.428571,0.111111,,0.72,0.65872,0.884841,0.729374
0.933271,0,0,0,1,0,0.494709,0.4,1,1,1,0.666667,0.0714286,0,0,0,0,1,0.75,0.125,0.166667,0.666667,0.75,0.7,0.285714,0.111111,,0.0316923,0.0941029,0.599295,0.002789956
0,0,0.933271,0.526316,0,0,0,1,0.5,0.333333,0.333333,1,0.0857143,0,0,0,0,0,0.25,0.375,0.333333,0,0,0,0.714286,0.0555556,,0.196923,0.74655,0.787309,0.203268
0,0,0.933271,0.515789,0,0.0279916,0.549677,0.333333,0.5,0.333333,0.333333,0.333333,0.113571,0,0,0,1,1,0.75,0.125,0.111111,0.666667,0.5,0,0.285714,0.0555556,,0.470769,0.654329,0.821387,0.438422
0,0.963391,0,0.526316,0,0,0.824516,0,0.5,0.333333,0.333333,0.666667,0.0892857,0,0,0,0,0,0.75,0.5,0.333333,0,0,0.5,0.428571,0.0555556,,0.698462,0.6399,0.810811,0.637704
0,0.770713,0.186654,0.526316,0,0,0.780541,0.0533333,0.5,0.333333,0.333333,0.333333,0.114286,0,1,1,0,1,0.75,0.125,0.111111,1,0.25,0.1,0.285714,0.111111,,0.673846,0.673149,0.871915,0.691511
0.0298647,0.818882,0.0466636,0.526316,0,0,0.680225,0.188,0.5,0.333333,0.333333,0.333333,0.114286,0,1,1,0,1,0.75,0.125,0.111111,1,0.333333,0.01,0.285714,0.666667,,0.624615,0.685069,0.822562,0.617776
0.167989,0.693642,0.0933271,0.263158,0.5,0,0.824516,0,1,1,1,0.666667,0.075,0,1,1,1,1,0.5,0.625,0.111111,0,0,0,0.285714,0.0777778,,0.870769,0.451694,0.767333,0.530092
0,0,0.933271,0.526316,0,0,0.549677,0.333333,0.5,0.333333,0.333333,0.333333,0.107143,0,0,0,0,0,0.25,0.1875,0.444444,0,0,0,0.8,0.111111,,0.333846,0.752823,0.822562,0.362694
0.933271,0,0,0.526316,0,0,0.824516,0,0.5,0.333333,0.333333,0.333333,0.0507143,1,0,0,1,1,0.25,0.125,0.111111,0.5,0.25,0,0.285714,0.111111,,0.700615,0.609159,0.813161,0.609805
0,0,0.933271,0,1,0,0.797032,0.0333333,0.5,0.333333,0.333333,0.333333,0.142857,0,1,0,1,0,0.5,0.25,0.444444,0,0,0,0.285714,0.111111,,0.743385,0.139272,0.387779,0.0701475
0,0,0.933271,0,1,0,0,1,0.5,0.333333,0.333333,0.333333,0.05,0,0,0,0,0,0.25,0.1875,0.444444,0,0,0,0.8,0.0222222,,0.338462,0.784191,0.881316,0.410522
0,0,0.933271,0.526316,0,0,0.549677,0.333333,0.5,0.666667,0.666667,0.666667,0.0857143,0,0,0,0,0,0.75,0.625,0.333333,0,0,0,0.8,0.0666667,,0.375385,0.742158,0.787309,0.385413
0,0,0.933271,0.526316,0,0,0.549677,0.333333,0.5,0.333333,0.333333,0.666667,0.0857143,0,0,0,0,0,0.75,0.625,0.333333,0,0,0,0.8,0.0666667,,0.404923,0.782936,0.869565,0.484257
0,0,0.933271,0.526316,0,0,0.549677,0.333333,0.5,0.333333,0.333333,0.666667,0.0857143,0,0,0,0,0,0.75,0.625,0.333333,0,0,0,0.8,0.0666667,,0.392923,0.76537,0.810811,0.426465
0,0.963391,0,0,1,0,0.824516,0,1,1,1,0.666667,0.0160714,1,0,1,1,0,0.5,0.625,1,0,0,0.8,0.2,0.111111,,0.652308,0.303011,0.782609,0.271024
0,0.963391,0,0.526316,0,0,0.824516,0,0.5,0.666667,0.666667,0.333333,0.0571429,0,0,0,0,0,0.75,0.5,0.666667,0,0,0.75,0.428571,0.111111,,0.691077,0.564617,0.652879,0.450777
0.933271,0,0,0.394737,0.25,0,0.824516,0,0.5,1,1,0.666667,0.0642857,0,0,0,1,1,0.75,0.625,0.333333,0.666667,0.5,0,0.342857,0.222222,,0.611077,0.590339,0.834548,0.530092
0.933271,0,0,0.263158,0.5,0,0.824516,0,1,1,1,0.666667,0.0714286,0,0,0,0,1,1,0.125,0.166667,0.666667,0.666667,0.3,0.285714,0.111111,,0.573846,0.388959,0.646298,0.253487
0.933271,0,0,0.394737,0.25,0,0.824516,0,0.5,1,1,0.666667,0.0642857,1,0,0,1,1,0.75,0.625,0.333333,0.833333,0.5,0,0.342857,0.222222,,0.431077,0.457967,0.916569,0.55839
0,0,0.933271,0.526316,0,0,0.549677,0.333333,0.5,0.333333,0.333333,0.333333,0.0642857,1,0,0,1,1,0.75,0.125,0.111111,0.666667,0.666667,0.278,0.371429,0.111111,,0.456,0.702635,0.80658,0.455161
0,0,0.933271,0.526316,0,0,0.824516,0,0.5,0.333333,0.333333,0.333333,0.0642857,1,1,1,1,0,0.75,0.5,0.333333,0,0,0,0.857143,0.111111,,0.450462,0.760979,0.92832,0.559187
0.001933969,0.003478622,0.933008,0.530083,0,0.002174441,0.551706,0.336068,0.502175,0.336925,0.330656,1.00547,0.04920645,0,0.997606,0,1.00039,0,0.748972,0.348073,0.277968,0.004000987,0.006314724,0,0.996732,0.0548756,,0.422154,0.734003,0.79906,0.434436
0.0471146,0.916277,0.000231642,1.00154,0,0,0.617943,0.0818527,0.496524,0.666083,0.665965,0.334093,0.08277655,0.999881,1.00462,0,1.00566,1.00084,0.998788,0.0286919,0.112243,0.663867,0.503003,0.19975,0.426407,0.110516,,0.759692,0.683814,0.878966,0.802312
0.934481,0.00710742,0,0.002061544,1.00152,0,0.827186,0.001581102,0.498723,0.330266,0.334449,0.326899,0.097563,0,0.996611,1.00066,0.002472975,0,0.494481,0.188691,0.330403,0,0.004519977,0,0.285233,0.221529,,0.612923,0.236826,0.607873,0.155042
0.001667652,0.000631952,0.931746,0.529046,0.003853787,0.003848324,0,0.992216,0.506444,0.333296,0.328466,0.333751,0.112399,0.005051479,0.002933821,0,0.000586909,0.001990212,0.248478,0.317887,0.668045,0,0.000749006,0.004815269,0.214998,0.332257,,0.207692,0.627353,0.869565,0.198485
0.000820018,0.003410401,0.929906,0.517782,0.003077369,0.0147721,0.001757535,1.00107,0.500585,0.330653,0.330962,0.999892,0.0655311,0.003148655,0.00153718,0.0066223,0.999703,1.0009,0.250153,0.247715,0.329235,0.334702,0.500812,0.001966874,0.711969,0.0464348,,0.212,0.859473,0.896592,0.291351
0.004383271,0.960638,0,0.525725,0,0,0.825347,0,0.500064,0.334941,0.341717,0.666481,0.0905582,0,0,0,0.004944893,0.00673625,0.75544,0.503542,0.33372,0.002347905,0,0.498437,0.424849,0.0588421,,0.646154,0.608532,0.764982,0.530092
0.001275091,0.967598,0,0.521588,0,0,0.831684,0,0.503262,0.327638,0.335816,0.663015,0.0927294,0,0.000894109,0.000137176,0,0,0.751845,0.500834,0.328648,0,0,0.502179,0.426772,0.0571812,,0.692308,0.664994,0.858989,0.697489
0.0490801,0.723597,0.142308,0.526983,0.001199433,0,0.660028,0.199079,0.502618,0.332772,0.333392,0.336149,0.115413,0.000308985,0.99674,1.0037,0,1.00227,0.749952,0.122114,0.114326,1.00474,0.335662,0.0135929,0.286499,0.668701,,0.643077,0.65872,0.857814,0.637704
0.185528,0.768183,0.003831018,0.267424,0.498107,0.001605341,0.822455,0.002208011,0.998984,0.99757,0.996651,0.665933,0.0737453,0.000567484,0.999654,1.00029,0.994811,1.00339,0.504588,0.623915,0.112839,0.006357129,0,0,0.2881274,0.0749371,,0.950769,0.483061,0.743831,0.605819
0,0.002452521,0.934001,0.526179,0,0.001944396,0.54584,0.329761,0.502241,0.341264,0.327712,0.332535,0.105281,0,0,0,0.001060836,0.00506635,0.24767,0.193777,0.438853,0,0.005784645,0,0.798687,0.110641,,0.268615,0.727729,0.705053,0.243125
0.936791,0,0.007262029,0.527383,0.000907905,0,0.822426,0.002518821,0.501398,0.333731,0.336545,0.331272,0.050986,1.00232,0,0,0.99983,1.00059,0.252031,0.123342,0.113177,0.496739,0.24731,0,0.284011,0.117477,,0.685538,0.612296,0.819036,0.604225
0.92976,0,0,0.523417,0,0,0.33888,0.490825,0.496805,0.336344,0.332038,0.333355,0.138885,0.000302473,0.003096286,0,0,0,0.245915,0.750034,0.05342992,0.004515323,0.000938475,0.000256949,0.196024,0.330648,,0.195385,0.523212,0.615746,0.111598
0,0.001913236,0.930947,0,0.999422,0.002941756,0.00172014,0.995111,0.4952,0.337535,0.333483,0.333097,0.0513706,0,0,0.000518891,0,0.002617762,0.247713,0.185534,0.446412,0.001587305,0,0.002626081,0.79306,0.0219896,,0.313846,0.727729,0.857814,0.346752
0.000670565,2.28E-05,0.93643,0,0.999569,0.005508818,0.001409805,1.00132,0.495429,0.330813,0.328387,0.332503,0.0488617,0.005589193,0,0,0,0,0.246987,0.189676,0.449073,0,0,0.004398925,0.79569,0.024148,,0.36,0.76537,0.822562,0.398565
0.003067332,0.00783991,0.929241,0.531046,0,0,0.547527,0.3297,0.497961,0.664996,0.669508,0.669508,0.0873655,0.002673069,0.002745371,0,0.997179,0.003776257,0.752713,0.628116,0.331097,0.00487528,0.000698062,0,0.793861,0.0657838,,0.365846,0.774153,0.834313,0.415305
0.000676092,0,0.931123,0.531684,0.002584804,0,0.548332,0.334265,0.501051,0.334811,0.330056,0.670075,0.0886462,0.001036187,0,0.003200464,0.001194687,0.005748064,0.746092,0.621839,0.324833,0,0.001411227,0,0.798575,0.066574,,0.385846,0.763488,0.857814,0.443603
0.002467819,0,0.931118,0.001552978,1.00032,0,0.821778,0.00126435,0.503249,0.339138,0.334584,0.335633,0.09576895,0,1.00314,0.997299,1.00081,0,0.752814,0.314731,0.665874,0.006940436,1.24E-05,0.001559946,0.282869,0.223356,,0.740308,0.183061,0.399765,0.0952571
0,0.968823,0,0.00536492,0.999251,0,0.825591,0,0.997701,0.999321,0.998605,0.666302,0.0193852,1.00258,0,0.997947,0.998554,0.007587695,0.49794,0.624166,1.00034,0.003766442,0.000427296,0.80098,0.202041,0.106591,,0.553846,0.337516,0.827262,0.271024
0.751408,0,0.183297,0.526476,0.000731171,0.000198003,0.826791,0,0.496959,0.672866,0.669668,0.335716,0.053283,0,0.994585,0.001778861,0.996698,0.004125417,0.757017,0.499248,0.663987,0,0,0.747292,0.290408,0.110598,,0.664615,0.621079,0.852409,0.620167
0.231451,0.724725,0.004122229,0.395644,0.251239,0.003014308,0.822205,0.002990408,0.998269,0.66889,0.667312,0.667889,0.0651236,0.993523,0,0,0.003850246,1.00552,1.00742,0.1287,0.1605542,0.664609,0.746772,0.705095,0.28715,0.1057,,0.509231,0.439147,0.763807,0.30012
0,0.000984028,0.932571,0.531766,0.003345433,0,0.549967,0.333849,0.49729,0.996137,0.999762,0.659277,0.0483537,1.00204,0.999336,0.005548904,0.995704,0.998144,0.746774,0.122423,0.0538252,0.499764,0.49993,0,0.457405,0.0552562,,0.478462,0.72271,0.949354,0.576724
0,0,0.938546,0.527443,0,0.002510277,0.554543,0.325281,0.495079,0.329029,0.333815,0.338986,0.0610339,0.000842116,0,0.005557562,0.000804686,1.00054,0.750611,0.121221,0.11022,0.674631,0.665964,0.280714,0.370994,0.117192,,0.416923,0.677541,0.763807,0.37784
0,0.002382809,0.934049,0.523691,0,0,0.546802,0.329849,0.5011713,0.332176,0.336301,0.338042,0.0658063,1.0012,0.004560805,0,1.0052,0.999373,0.744847,0.123412,0.1104,0.663396,0.7504288,0.150606,0.571755,0.110452,,0.468308,0.752823,0.891774,0.552411
0.22913,0.72082,0.003096936,0.002084484,0.847158,0.20926,0.825921,0,1.0032,1.00214,0.992733,0.333218,0.0787332,0,0.999418,0,0,0.003167243,0.248612,0.624283,0.553335,0.001636346,0.001636711,0.274891,0.194868,0.112474,,0.364308,0.0941029,0.540541,0.0318852