Folder: machine-learning-for-perovskite/3.XGboost/.ipynb_checkpoints

File: data-checkpoint.csv
MA,FA,Cs,Pb,Sn,Other,I,Br,Gap,Po,ETL,HTL,Ne,Area,Add_O,Add_I,Add_H,Passivation,Step,Solvent,Coated_v,Coated_t,Coated_1v,Coated_1t,Coated_2v,Coated_2t,antisolvent,Anneal_T,Anneal_t,Jsc,Voc,FF,PCE
1,0,0,1,0,0,1,0,0.61597,1,1,1,0.666667,0.05,0,0,0,1,0.5,0.75,0.5,0.222222,0,0,0,0,0.115,0.285714,0.0222222,0.650769,0.644918,0.920094,0.479075
0,1,0,0,1,0,1,0,0.528517,1,1,0.666667,1,0.0285714,1,1,1,1,0.5,0.75,1,0.666667,0,0,0,0,0.12,0.228571,0.111111,0.763385,0.476788,0.817744,0.522917
0,1,0,0,1,0,1,0,0.524715,1,1,0.666667,1,0.0285714,1,0,1,0,0.5,0.75,0.5,0.666667,0,0,0,0,0,0.185714,0.222222,0.741538,0.3293601,0.834313,0.358709
0,0,1,0,1,0,1,0,0.475285,0,0.333333,1,0.333333,0.0964286,0,1,1,0,0.5,0.5,0.1875,0.333333,0,0,0,0,0,0.285714,0.222222,0.946154,0.10665,0.409871,0.0729374
0.16,0.79,0.05,1,0,0,0.826667,0.173333,0.6121673,1,1,0.666667,0.666667,0.0285714,0,0,0,0,0.5,0.75,0.625,0.444444,0,0,0,0,0,0.285714,0.333333,0.609846,0.439147,0.819624,0.38621
0,0,1,1,0,0,0,1,0.882129,0,0.333333,0,1,0.0642857,0,0,0,0,1,0.25,0,0,0.333333,0.5,0.333333,0.6,0,0.714286,0.0555556,0.212,0.859473,0.902468,0.28896
0,1,0,1,0,0,1,0,0.574144,0,0.333333,0.333333,0.666667,0.0892857,0,0,0,0,0.5,0.75,0.5,0.333333,0,0,0,0,0.5,0.428571,0.0555556,0.698462,0.6399,0.810811,0.637704
0,0,1,0.95,0,0.05,1,0,0.638403,0,0.333333,0.333333,0.333333,0.0642857,0,0,0,0,0.5,0.75,0.5,0.333333,0,0,0,0,0,0.514286,0.1,0.624615,0.687578,0.843713,0.636907
0.1425,0.8475,0.05,1,0,0,0.15,0.85,0.61597,1,0.666667,0.333333,0.666667,0.0728571,0,1,1,0,1,0.5,0,0,0.166667,0.166667,0.833333,0.6,0.2,0.285714,0.666667,0.725231,0.702008,0.892362,0.798326
0,0,1,1,0,0,0.666667,0.333333,0.730038,0,0.333333,0.333333,0.333333,0.107143,0,0,0,0,0.5,0.25,0.1875,0.444444,0,0,0,0,0,0.8,0.111111,0.284,0.759097,0.869565,0.330809
1,0,0,1,0,0,1,0,0.593156,0,0.333333,0.333333,0.333333,0.0507143,1,0,0,1,1,1,0,0,0.166667,0.166667,0.5,0.3,0,0.285714,0.111111,0.650462,0.622961,0.881316,0.62774
0,0,1,1,0,0,1,0,0.657795,0,0.333333,1,0.333333,0.0642857,1,1,1,1,0.5,0.75,0.5,0.333333,0,0,0,0,0,0.857143,0.111111,0.447692,0.769762,0.924794,0.559984
0,0,1,1,0,0,0.666667,0.333333,0.730038,0,0.333333,0.333333,0.333333,0.05,0,0,0,0,0.5,0.25,0.1875,0.444444,0,0,0,0,0,0.8,0.0222222,0.363077,0.74655,0.79906,0.378637
0,0,1,1,0,0,0.666667,0.333333,0.726236,0,0.666667,0.333333,0.666667,0.0857143,0,0,0,0,0.5,0.75,0.625,0.333333,0,0,0,0,0,0.8,0.0666667,0.366769,0.74404,0.834313,0.400159
0,0,1,1,0,0,0.666667,0.333333,0.726236,0,0.333333,0.333333,0.666667,0.0857143,0,0,0,0,0.5,0.75,0.625,0.333333,0,0,0,0,0,0.8,0.0666667,0.400923,0.769762,0.846063,0.458749
0,0,1,1,0,0,0.666667,0.333333,0.726236,0,0.666667,0.333333,0.666667,0.0857143,0,0,0,0,0.5,0.75,0.625,0.333333,0,0,0,0,0,0.8,0.0666667,0.358154,0.804893,0.92832,0.470307
0,1,0,0,1,0,1,0,0.547529,1,1,0.666667,0.666667,0.0160714,1,0,1,1,0.5,0.5,0.625,1,0,0,0,0,0.8,0.2,0.111111,0.553846,0.336261,0.823737,0.271024
0,0,1,1,0,0,0,1,0.878327,0,0.333333,0,1,0.0642857,0,0,0,0,0.5,0.75,0.25,0.333333,0,0,0,0.02,0,0.714286,0.0555556,0.212,0.934755,0.92832,0.323236
0.5,0.5,0,0.75,0.25,0,1,0,0.505703,1,1,0.666667,0.666667,0.0714286,1,0,0,0,0.5,1,0.5,0.5,0,0,0,0,0.7,0.285714,0.111111,0.708615,0.489335,0.92832,0.565564
1,0,0,0.5,0.5,0,1,0,0.448669,1,1,0.666667,0.666667,0.0714286,0,0,0,0,1,0.25,0,0,1,1,0.416667,0.6,0,0.314286,0.5,0.775385,0.464241,0.767333,0.48625
0,1,0,0,1,0,1,0,0.528517,1,1,1,0.666667,0.0342857,0,1,0,1,0.5,0.75,0.625,0.333333,0,0,0,0,0,0.2,0.111111,0.601538,0.313676,0.748649,0.249103
0,1,0,0,1,0,1,0,0.532319,1,1,0.666667,0.666667,0.0285714,0,0,0,0,0.5,0.75,0.625,0.333333,0,0,0,0,0,0.271429,0.166667,0.565846,0.227729,0.687779,0.155839
0,1,0,0,1,0,1,0,0.532319,1,1,0.666667,0.666667,0.0285714,0,0,0,1,0.5,0.75,0.625,0.333333,0,0,0,0,0,0.271429,0.166667,0.643385,0.295483,0.750646,0.251096
1.00319,0,0,0,1.00265,0,0.997818,0.000201906,0.497021,0.002751601,0.333281,0.334112,0.334994,0.0726412,0.00292776,0.001735585,0.003248744,0.001161027,0.501508,0.245625,0.499137,0.503727,0.000270299,0,0.002369471,0.001349826,0.000183752,0.356327,0.33597,0.501538,0.4266,0.564042,0.20845
0,5.97E-05,0.9972433,0,1.00144,0.002615982,0.998421,0.000245125,0.493633,0.995717,1.00179,0.665783,0.665646,0.0412277,0,0,0.005801675,1.00304,0.500322,0.752922,0.371176,0.333376,0.000399237,0,0,0,0,0.198853,0.0881333,0.443692,0.395232,0.705053,0.219609
0,0.996626,0.004395744,0.00268884,0.995766,0,0.999263,0,0.534708,0.006117045,0.337569,0.335255,0.327358,0.114659,1.00515,0.005446441,0,1.00372,0.999792,0.752682,0,0.003906383,0.166819,0.165381,0.836244,0.995589,0.998244,0.177108,0.664277,0.753846,0.181932,0.646298,0.159426
0.999866,0.001263072,0.00240863,0.005741364,0.993021,0.000177986,0.333287,0.666137,0.669051,0,0.33338,0.331542,0.332222,0.0681543,0.003504967,0.002579532,0,0.001530143,0.498691,0.250341,0.4967,0.504576,0.001570651,0,0.002091784,0.003657973,0.004550861,0.356409,0.334377,0.378462,0.514429,0.6698,0.228378
0.003366863,0.001731783,0.997763,0.996273,0.001059882,0.004377753,0.002811383,0.992422,0.871657,0,0.005563213,0,0.999534,0.0883426,0.001244015,0.002780235,0,0.003002093,0.500397,0.254884,0.248709,0.331729,0,0,0.001384362,0.001512024,0,0.712427,0.0608855,0.156923,0.821832,0.634548,0.143483
0,0.002519031,0.991828,0.999184,0,0,0.335841,0.665361,0.720126,0,0.331864,0,0.998672,0.0627338,0,0.002705569,0,0,0.498963,0.746333,0.248395,0.330325,0,0.001913257,0,0,0.000202119,0.997832,0.113712,0.379077,0.677541,0.728555,0.328816
0,1.00218,0.009172893,0.998076,0.003897929,0.002815709,1.00056,0,0.574976,0.002609526,0.335141,0.331355,0.663803,0.0861085,0.002693943,0.002591351,0,0.004017352,0.501126,0.752051,0.496523,0.332355,0,3.53E-05,0,0,0.500683,0.426528,0.0560749,0.692308,0.646173,0.829612,0.653647
0.150114,0.753286,0.0973598,1.00334,0.001232089,0,0.836077,0.171105,0.619711,0.005862183,0.335729,0.327694,0.33389,0.111149,0,0.999715,1.00274,0.002115523,0.997363,0.746677,0,0,0.166046,0.162962,0.996794,0.400797,0.006635348,0.283129,0.669888,0.636923,0.658093,0.881316,0.649661
0,0,1.00052,0.998242,0,0,0.666412,0.335999,0.730956,0.000300893,0.327551,0.335354,0.335859,0.107924,0.003734313,0,0,0.003613498,0.50063,0.249332,0.185495,0.441862,0.001377331,0,0,0.001232697,0.005278191,0.798661,0.108183,0.324615,0.683814,0.822562,0.318852
1.00111,0.001834399,0.000815372,1.00084,0,0.001139093,0.998936,0.006938756,0.599026,0,0.330678,0.335946,0.331947,0.0485576,0,0,0,0,1.00036,1.00626,5.69E-05,0.004097985,0.168191,0.162438,0.497588,0.299778,3.90E-05,0.2816168,0.109609,0.512615,0.521957,0.713278,0.335193
0.999143,0,0,1.00181,0.001781508,0.005669101,0.881299,0.121209,0.610827,0,0.333566,0.33036,0.331869,0.143993,0,0.002299032,0.00363724,0.001560167,0.500295,0.25389,0.75178,0.0561684,0,0.004037607,0.001883718,0.00097749,0,0.201514,0.334591,0.427385,0.558344,0.76745,0.324033
0.003973371,0,1.00033,0.998219,0,0.000167613,0.663441,0.333617,0.72476,0.000798506,0.328917,0.334781,0.3333,0.0487257,0,0,0,0.000464957,0.500845,0.252183,0.188552,0.44511,0.004716447,0,0.001890753,0,0.001928708,0.7939198,0.02313265,0.313846,0.727729,0.857814,0.346752
0,0.004637507,1.00529,0.900293,0,0.0967063,0.667152,0.339126,0.716119,0,0.660832,0.336211,0.335558,0.0723751,0.00090815,0.002801017,0.000768208,0.994276,0.5065386,0.750031,0.379474,0.28155,0,0.004251537,0,0,0.502186,0.452001,0.116021,0.350462,0.696361,0.696827,0.30291
0,0.003143781,0.997331,0.994097,0.001286668,0.002036929,0.66732,0.330579,0.719627,0.002015625,0.329746,0.332437,0.666209,0.0873002,0.000992243,0,0.00196707,0.00428008,0.497975,0.752515,0.626746,0.331396,0.002595163,0.001802681,0.004536678,0,0,0.80516,0.0635921,0.401846,0.781681,0.881316,0.48625
0.000451476,0,0.999712,0.996372,0,0.00234421,0.661115,0.333655,0.730928,0,0.338757,0.330547,0.665496,0.0809959,0,0.007566402,0.00278222,0.000143273,0.503576,0.749586,0.623775,0.338597,0.000944523,0.002524666,0.00424873,0,0.002504919,0.805519,0.0697034,0.384,0.793601,0.775558,0.415305
0,1.00374,0.001684823,0.00262068,1.00101,0,1.00573,0.001930913,0.547801,1.00687,0.99981,0.664965,0.658918,0.0108595,0.995835,0,0.999577,0.995103,0.496249,0.500139,0.618727,0.999227,0,0,0.003225596,0.001790227,0.79916,0.199895,0.110022,0.636923,0.308657,0.756757,0.263053
6.00E-05,0.803338,0.199052,1.00259,0.001020193,0,1.00059,0,0.600402,0.003322975,0.664841,0.336568,0.337126,0.0573751,0,0.00444441,0.002001629,0,0.500706,0.746403,0.500509,0.665172,0.003543126,0,0.00050792,0,0.746193,0.285429,0.110889,0.661846,0.608532,0.756992,0.53607
0.997355,0.001085704,0.000396847,0.752857,0.245923,0,1.00229,0,0.447063,0.00428385,1.00251,0.669856,0.661688,0.063261,0.002793744,0.004008998,0,0.998577,1.00018,0.752363,0,0,0.83218,0.498621,0.668454,0.60022,0.007429393,0.344932,0.22239,0.622769,0.600878,0.8613396,0.5663611
0,0,1.00296,0.998773,0,0,0.660363,0.335512,0.715634,0,1.00038,0.996626,0.665078,0.0554349,0,0,0.003602033,0.007176464,0.497413,0.748036,0.368569,0.333341,0,0.000355993,0,0,0.00088304,0.456077,0.0533328,0.473538,0.708908,0.941128,0.555201
0,0,0.998027,1.00679,0.003501795,0,0.670681,0.332502,0.723761,0,0.327672,0.335556,0.338385,0.06800004,1.00227,0.001514388,0.000559588,0.995124,0.495969,0.743111,0.502539,0.441617,0.002252245,0,0.000164168,0,0,0.313885,0.110291,0.442769,0.734003,0.77309,0.439617
0,0.99748,0,6.98E-05,1.00043,0,0.999737,0,0.532691,0.99851,0.999205,0.662368,0.668575,0.0252208,0.00194471,0,0.001755045,0,0.493773,0.753143,0.629983,0.330981,0,0,0,0.002249429,0.000806602,0.27058,0.168345,0.558769,0.254705,0.706933,0.176963
0,1.00602,0,0.000611312,0.999228,0,1.00441,0,0.528013,1.00138,1.002,0.668291,0.66918,0.0287641,0,0,0.000329224,1.00091,0.498002,0.752871,0.623678,0.336222,0.002250092,0,0,0,0,0.271185,0.170807,0.690769,0.301129,0.763925,0.279793
0,0.996697,0.004887306,0.005823132,0.997294,0.006608205,0.997716,0.003599131,0.53215,1.00539,0.999787,0.669974,0.666827,0.028735,0.004767427,0,0,1.00078,0.496474,0.747347,0.627855,0.340133,0,0,0,0,0,0.273758,0.172273,0.611077,0.303011,0.70517,0.229175